label1,Freq1,img_train,img_test,trials.thisRepN,trials.thisTrialN,trials.thisN,trials.thisIndex,trials_2.thisRepN,trials_2.thisTrialN,trials_2.thisN,trials_2.thisIndex,inputText,testText,key_resp_4.keys,key_resp_4.rt,date,frameRate,expName,session,participant,
mipuwe,high,Stims/p4.bmp,,0,0,0,16,,,,,,,,,2018_Aug_19_1302,59.6399396534,Artificial_language_learning,001,,
nowahi,high,Stims/p3.bmp,,0,1,1,14,,,,,,,,,2018_Aug_19_1302,59.6399396534,Artificial_language_learning,001,,
gahemi,high,Stims/p2.bmp,,0,2,2,10,,,,,,,,,2018_Aug_19_1302,59.6399396534,Artificial_language_learning,001,,
gulika,med,Stims/p6.bmp,,0,3,3,21,,,,,,,,,2018_Aug_19_1302,59.6399396534,Artificial_language_learning,001,,
hekipo,med,Stims/p5.bmp,,0,4,4,18,,,,,,,,,2018_Aug_19_1302,59.6399396534,Artificial_language_learning,001,,
lamupo,low,Stims/p9.bmp,,0,5,5,25,,,,,,,,,2018_Aug_19_1302,59.6399396534,Artificial_language_learning,001,,
lenoga,high,Stims/p0.bmp,,0,6,6,0,,,,,,,,,2018_Aug_19_1302,59.6399396534,Artificial_language_learning,001,,
womeku,low,Stims/p8.bmp,,0,7,7,24,,,,,,,,,2018_Aug_19_1302,59.6399396534,Artificial_language_learning,001,,
gahemi,high,Stims/p2.bmp,,0,8,8,11,,,,,,,,,2018_Aug_19_1302,59.6399396534,Artificial_language_learning,001,,
kilonu,high,Stims/p1.bmp,,0,9,9,5,,,,,,,,,2018_Aug_19_1302,59.6399396534,Artificial_language_learning,001,,
gahemi,high,Stims/p2.bmp,,0,10,10,8,,,,,,,,,2018_Aug_19_1302,59.6399396534,Artificial_language_learning,001,,
lenoga,high,Stims/p0.bmp,,0,11,11,3,,,,,,,,,2018_Aug_19_1302,59.6399396534,Artificial_language_learning,001,,
kilonu,high,Stims/p1.bmp,,0,12,12,7,,,,,,,,,2018_Aug_19_1302,59.6399396534,Artificial_language_learning,001,,
lenoga,high,Stims/p0.bmp,,0,13,13,1,,,,,,,,,2018_Aug_19_1302,59.6399396534,Artificial_language_learning,001,,
nowahi,high,Stims/p3.bmp,,0,14,14,12,,,,,,,,,2018_Aug_19_1302,59.6399396534,Artificial_language_learning,001,,
kugowi,low,Stims/pp1.bmp,,0,15,15,26,,,,,,,,,2018_Aug_19_1302,59.6399396534,Artificial_language_learning,001,,
nowahi,high,Stims/p3.bmp,,0,16,16,15,,,,,,,,,2018_Aug_19_1302,59.6399396534,Artificial_language_learning,001,,
lenoga,high,Stims/p0.bmp,,0,17,17,2,,,,,,,,,2018_Aug_19_1302,59.6399396534,Artificial_language_learning,001,,
mipuwe,high,Stims/p4.bmp,,0,18,18,17,,,,,,,,,2018_Aug_19_1302,59.6399396534,Artificial_language_learning,001,,
kilonu,high,Stims/p1.bmp,,0,19,19,4,,,,,,,,,2018_Aug_19_1302,59.6399396534,Artificial_language_learning,001,,
gahemi,high,Stims/p2.bmp,,0,20,20,9,,,,,,,,,2018_Aug_19_1302,59.6399396534,Artificial_language_learning,001,,
howine,med,Stims/p7.bmp,,0,21,21,23,,,,,,,,,2018_Aug_19_1302,59.6399396534,Artificial_language_learning,001,,
hekipo,med,Stims/p5.bmp,,0,22,22,19,,,,,,,,,2018_Aug_19_1302,59.6399396534,Artificial_language_learning,001,,
gulika,med,Stims/p6.bmp,,0,23,23,20,,,,,,,,,2018_Aug_19_1302,59.6399396534,Artificial_language_learning,001,,
pigalo,low,Stims/pp2.bmp,,0,24,24,27,,,,,,,,,2018_Aug_19_1302,59.6399396534,Artificial_language_learning,001,,
howine,med,Stims/p7.bmp,,0,25,25,22,,,,,,,,,2018_Aug_19_1302,59.6399396534,Artificial_language_learning,001,,
nowahi,high,Stims/p3.bmp,,0,26,26,13,,,,,,,,,2018_Aug_19_1302,59.6399396534,Artificial_language_learning,001,,
kilonu,high,Stims/p1.bmp,,0,27,27,6,,,,,,,,,2018_Aug_19_1302,59.6399396534,Artificial_language_learning,001,,
kilonu,high,Stims/p1.bmp,,1,0,28,6,,,,,,,,,2018_Aug_19_1302,59.6399396534,Artificial_language_learning,001,,
lenoga,high,Stims/p0.bmp,,1,1,29,2,,,,,,,,,2018_Aug_19_1302,59.6399396534,Artificial_language_learning,001,,
hekipo,med,Stims/p5.bmp,,1,2,30,18,,,,,,,,,2018_Aug_19_1302,59.6399396534,Artificial_language_learning,001,,
nowahi,high,Stims/p3.bmp,,1,3,31,14,,,,,,,,,2018_Aug_19_1302,59.6399396534,Artificial_language_learning,001,,
gahemi,high,Stims/p2.bmp,,1,4,32,10,,,,,,,,,2018_Aug_19_1302,59.6399396534,Artificial_language_learning,001,,
nowahi,high,Stims/p3.bmp,,1,5,33,12,,,,,,,,,2018_Aug_19_1302,59.6399396534,Artificial_language_learning,001,,
womeku,low,Stims/p8.bmp,,1,6,34,24,,,,,,,,,2018_Aug_19_1302,59.6399396534,Artificial_language_learning,001,,
gulika,med,Stims/p6.bmp,,1,7,35,21,,,,,,,,,2018_Aug_19_1302,59.6399396534,Artificial_language_learning,001,,
lenoga,high,Stims/p0.bmp,,1,8,36,0,,,,,,,,,2018_Aug_19_1302,59.6399396534,Artificial_language_learning,001,,
howine,med,Stims/p7.bmp,,1,9,37,22,,,,,,,,,2018_Aug_19_1302,59.6399396534,Artificial_language_learning,001,,
howine,med,Stims/p7.bmp,,1,10,38,23,,,,,,,,,2018_Aug_19_1302,59.6399396534,Artificial_language_learning,001,,
gahemi,high,Stims/p2.bmp,,1,11,39,9,,,,,,,,,2018_Aug_19_1302,59.6399396534,Artificial_language_learning,001,,
lenoga,high,Stims/p0.bmp,,1,12,40,3,,,,,,,,,2018_Aug_19_1302,59.6399396534,Artificial_language_learning,001,,
hekipo,med,Stims/p5.bmp,,1,13,41,19,,,,,,,,,2018_Aug_19_1302,59.6399396534,Artificial_language_learning,001,,
lenoga,high,Stims/p0.bmp,,1,14,42,1,,,,,,,,,2018_Aug_19_1302,59.6399396534,Artificial_language_learning,001,,
mipuwe,high,Stims/p4.bmp,,1,15,43,16,,,,,,,,,2018_Aug_19_1302,59.6399396534,Artificial_language_learning,001,,
kilonu,high,Stims/p1.bmp,,1,16,44,5,,,,,,,,,2018_Aug_19_1302,59.6399396534,Artificial_language_learning,001,,
nowahi,high,Stims/p3.bmp,,1,17,45,13,,,,,,,,,2018_Aug_19_1302,59.6399396534,Artificial_language_learning,001,,
kilonu,high,Stims/p1.bmp,,1,18,46,7,,,,,,,,,2018_Aug_19_1302,59.6399396534,Artificial_language_learning,001,,
pigalo,low,Stims/pp2.bmp,,1,19,47,27,,,,,,,,,2018_Aug_19_1302,59.6399396534,Artificial_language_learning,001,,
gulika,med,Stims/p6.bmp,,1,20,48,20,,,,,,,,,2018_Aug_19_1302,59.6399396534,Artificial_language_learning,001,,
nowahi,high,Stims/p3.bmp,,1,21,49,15,,,,,,,,,2018_Aug_19_1302,59.6399396534,Artificial_language_learning,001,,
lamupo,low,Stims/p9.bmp,,1,22,50,25,,,,,,,,,2018_Aug_19_1302,59.6399396534,Artificial_language_learning,001,,
kugowi,low,Stims/pp1.bmp,,1,23,51,26,,,,,,,,,2018_Aug_19_1302,59.6399396534,Artificial_language_learning,001,,
gahemi,high,Stims/p2.bmp,,1,24,52,11,,,,,,,,,2018_Aug_19_1302,59.6399396534,Artificial_language_learning,001,,
gahemi,high,Stims/p2.bmp,,1,25,53,8,,,,,,,,,2018_Aug_19_1302,59.6399396534,Artificial_language_learning,001,,
kilonu,high,Stims/p1.bmp,,1,26,54,4,,,,,,,,,2018_Aug_19_1302,59.6399396534,Artificial_language_learning,001,,
mipuwe,high,Stims/p4.bmp,,1,27,55,17,,,,,,,,,2018_Aug_19_1302,59.6399396534,Artificial_language_learning,001,,
womeku,low,Stims/p8.bmp,,2,0,56,24,,,,,,,,,2018_Aug_19_1302,59.6399396534,Artificial_language_learning,001,,
lamupo,low,Stims/p9.bmp,,2,1,57,25,,,,,,,,,2018_Aug_19_1302,59.6399396534,Artificial_language_learning,001,,
lenoga,high,Stims/p0.bmp,,2,2,58,2,,,,,,,,,2018_Aug_19_1302,59.6399396534,Artificial_language_learning,001,,
hekipo,med,Stims/p5.bmp,,2,3,59,19,,,,,,,,,2018_Aug_19_1302,59.6399396534,Artificial_language_learning,001,,
gahemi,high,Stims/p2.bmp,,2,4,60,9,,,,,,,,,2018_Aug_19_1302,59.6399396534,Artificial_language_learning,001,,
howine,med,Stims/p7.bmp,,2,5,61,23,,,,,,,,,2018_Aug_19_1302,59.6399396534,Artificial_language_learning,001,,
kugowi,low,Stims/pp1.bmp,,2,6,62,26,,,,,,,,,2018_Aug_19_1302,59.6399396534,Artificial_language_learning,001,,
lenoga,high,Stims/p0.bmp,,2,7,63,1,,,,,,,,,2018_Aug_19_1302,59.6399396534,Artificial_language_learning,001,,
howine,med,Stims/p7.bmp,,2,8,64,22,,,,,,,,,2018_Aug_19_1302,59.6399396534,Artificial_language_learning,001,,
lenoga,high,Stims/p0.bmp,,2,9,65,3,,,,,,,,,2018_Aug_19_1302,59.6399396534,Artificial_language_learning,001,,
nowahi,high,Stims/p3.bmp,,2,10,66,13,,,,,,,,,2018_Aug_19_1302,59.6399396534,Artificial_language_learning,001,,
kilonu,high,Stims/p1.bmp,,2,11,67,4,,,,,,,,,2018_Aug_19_1302,59.6399396534,Artificial_language_learning,001,,
gahemi,high,Stims/p2.bmp,,2,12,68,8,,,,,,,,,2018_Aug_19_1302,59.6399396534,Artificial_language_learning,001,,
nowahi,high,Stims/p3.bmp,,2,13,69,15,,,,,,,,,2018_Aug_19_1302,59.6399396534,Artificial_language_learning,001,,
gulika,med,Stims/p6.bmp,,2,14,70,21,,,,,,,,,2018_Aug_19_1302,59.6399396534,Artificial_language_learning,001,,
mipuwe,high,Stims/p4.bmp,,2,15,71,17,,,,,,,,,2018_Aug_19_1302,59.6399396534,Artificial_language_learning,001,,
gahemi,high,Stims/p2.bmp,,2,16,72,11,,,,,,,,,2018_Aug_19_1302,59.6399396534,Artificial_language_learning,001,,
kilonu,high,Stims/p1.bmp,,2,17,73,6,,,,,,,,,2018_Aug_19_1302,59.6399396534,Artificial_language_learning,001,,
nowahi,high,Stims/p3.bmp,,2,18,74,14,,,,,,,,,2018_Aug_19_1302,59.6399396534,Artificial_language_learning,001,,
gahemi,high,Stims/p2.bmp,,2,19,75,10,,,,,,,,,2018_Aug_19_1302,59.6399396534,Artificial_language_learning,001,,
kilonu,high,Stims/p1.bmp,,2,20,76,5,,,,,,,,,2018_Aug_19_1302,59.6399396534,Artificial_language_learning,001,,
kilonu,high,Stims/p1.bmp,,2,21,77,7,,,,,,,,,2018_Aug_19_1302,59.6399396534,Artificial_language_learning,001,,
mipuwe,high,Stims/p4.bmp,,2,22,78,16,,,,,,,,,2018_Aug_19_1302,59.6399396534,Artificial_language_learning,001,,
lenoga,high,Stims/p0.bmp,,2,23,79,0,,,,,,,,,2018_Aug_19_1302,59.6399396534,Artificial_language_learning,001,,
pigalo,low,Stims/pp2.bmp,,2,24,80,27,,,,,,,,,2018_Aug_19_1302,59.6399396534,Artificial_language_learning,001,,
gulika,med,Stims/p6.bmp,,2,25,81,20,,,,,,,,,2018_Aug_19_1302,59.6399396534,Artificial_language_learning,001,,
nowahi,high,Stims/p3.bmp,,2,26,82,12,,,,,,,,,2018_Aug_19_1302,59.6399396534,Artificial_language_learning,001,,
hekipo,med,Stims/p5.bmp,,2,27,83,18,,,,,,,,,2018_Aug_19_1302,59.6399396534,Artificial_language_learning,001,,
hekipo,med,Stims/p5.bmp,,3,0,84,19,,,,,,,,,2018_Aug_19_1302,59.6399396534,Artificial_language_learning,001,,
gulika,med,Stims/p6.bmp,,3,1,85,21,,,,,,,,,2018_Aug_19_1302,59.6399396534,Artificial_language_learning,001,,
kugowi,low,Stims/pp1.bmp,,3,2,86,26,,,,,,,,,2018_Aug_19_1302,59.6399396534,Artificial_language_learning,001,,
nowahi,high,Stims/p3.bmp,,3,3,87,12,,,,,,,,,2018_Aug_19_1302,59.6399396534,Artificial_language_learning,001,,
kilonu,high,Stims/p1.bmp,,3,4,88,4,,,,,,,,,2018_Aug_19_1302,59.6399396534,Artificial_language_learning,001,,
howine,med,Stims/p7.bmp,,3,5,89,22,,,,,,,,,2018_Aug_19_1302,59.6399396534,Artificial_language_learning,001,,
womeku,low,Stims/p8.bmp,,3,6,90,24,,,,,,,,,2018_Aug_19_1302,59.6399396534,Artificial_language_learning,001,,
lenoga,high,Stims/p0.bmp,,3,7,91,1,,,,,,,,,2018_Aug_19_1302,59.6399396534,Artificial_language_learning,001,,
gahemi,high,Stims/p2.bmp,,3,8,92,8,,,,,,,,,2018_Aug_19_1302,59.6399396534,Artificial_language_learning,001,,
kilonu,high,Stims/p1.bmp,,3,9,93,5,,,,,,,,,2018_Aug_19_1302,59.6399396534,Artificial_language_learning,001,,
mipuwe,high,Stims/p4.bmp,,3,10,94,17,,,,,,,,,2018_Aug_19_1302,59.6399396534,Artificial_language_learning,001,,
gahemi,high,Stims/p2.bmp,,3,11,95,11,,,,,,,,,2018_Aug_19_1302,59.6399396534,Artificial_language_learning,001,,
nowahi,high,Stims/p3.bmp,,3,12,96,14,,,,,,,,,2018_Aug_19_1302,59.6399396534,Artificial_language_learning,001,,
gahemi,high,Stims/p2.bmp,,3,13,97,10,,,,,,,,,2018_Aug_19_1302,59.6399396534,Artificial_language_learning,001,,
lamupo,low,Stims/p9.bmp,,3,14,98,25,,,,,,,,,2018_Aug_19_1302,59.6399396534,Artificial_language_learning,001,,
gulika,med,Stims/p6.bmp,,3,15,99,20,,,,,,,,,2018_Aug_19_1302,59.6399396534,Artificial_language_learning,001,,
lenoga,high,Stims/p0.bmp,,3,16,100,3,,,,,,,,,2018_Aug_19_1302,59.6399396534,Artificial_language_learning,001,,
hekipo,med,Stims/p5.bmp,,3,17,101,18,,,,,,,,,2018_Aug_19_1302,59.6399396534,Artificial_language_learning,001,,
mipuwe,high,Stims/p4.bmp,,3,18,102,16,,,,,,,,,2018_Aug_19_1302,59.6399396534,Artificial_language_learning,001,,
nowahi,high,Stims/p3.bmp,,3,19,103,13,,,,,,,,,2018_Aug_19_1302,59.6399396534,Artificial_language_learning,001,,
gahemi,high,Stims/p2.bmp,,3,20,104,9,,,,,,,,,2018_Aug_19_1302,59.6399396534,Artificial_language_learning,001,,
kilonu,high,Stims/p1.bmp,,3,21,105,6,,,,,,,,,2018_Aug_19_1302,59.6399396534,Artificial_language_learning,001,,
lenoga,high,Stims/p0.bmp,,3,22,106,0,,,,,,,,,2018_Aug_19_1302,59.6399396534,Artificial_language_learning,001,,
nowahi,high,Stims/p3.bmp,,3,23,107,15,,,,,,,,,2018_Aug_19_1302,59.6399396534,Artificial_language_learning,001,,
kilonu,high,Stims/p1.bmp,,3,24,108,7,,,,,,,,,2018_Aug_19_1302,59.6399396534,Artificial_language_learning,001,,
howine,med,Stims/p7.bmp,,3,25,109,23,,,,,,,,,2018_Aug_19_1302,59.6399396534,Artificial_language_learning,001,,
lenoga,high,Stims/p0.bmp,,3,26,110,2,,,,,,,,,2018_Aug_19_1302,59.6399396534,Artificial_language_learning,001,,
pigalo,low,Stims/pp2.bmp,,3,27,111,27,,,,,,,,,2018_Aug_19_1302,59.6399396534,Artificial_language_learning,001,,
gahemi,high,,Stims/p2.bmp,,,,,0,0,0,2,,,,,2018_Aug_19_1302,59.6399396534,Artificial_language_learning,001,,
None,unseen,,Stims/pp4.bmp,,,,,0,1,1,13,,,,,2018_Aug_19_1302,59.6399396534,Artificial_language_learning,001,,
howine,med,,Stims/p7.bmp,,,,,0,2,2,7,,,,,2018_Aug_19_1302,59.6399396534,Artificial_language_learning,001,,
lamupo,low,,Stims/p9.bmp,,,,,0,3,3,9,,,,,2018_Aug_19_1302,59.6399396534,Artificial_language_learning,001,,
mipuwe,med,,Stims/p4.bmp,,,,,0,4,4,4,,,,,2018_Aug_19_1302,59.6399396534,Artificial_language_learning,001,,
None,unseen,,Stims/pp3.bmp,,,,,0,5,5,12,,,,,2018_Aug_19_1302,59.6399396534,Artificial_language_learning,001,,
None,unseen,,Stims/pp6.bmp,,,,,0,6,6,15,,,,,2018_Aug_19_1302,59.6399396534,Artificial_language_learning,001,,
nowahi,high,,Stims/p3.bmp,,,,,0,7,7,3,,,,,2018_Aug_19_1302,59.6399396534,Artificial_language_learning,001,,
kugowi,low,,Stims/pp1.bmp,,,,,0,8,8,10,,,,,2018_Aug_19_1302,59.6399396534,Artificial_language_learning,001,,
pigalo,low,,Stims/pp2.bmp,,,,,0,9,9,11,,,,,2018_Aug_19_1302,59.6399396534,Artificial_language_learning,001,,
lenoga,high,,Stims/p0.bmp,,,,,0,10,10,0,,,,,2018_Aug_19_1302,59.6399396534,Artificial_language_learning,001,,
hekipo,med,,Stims/p5.bmp,,,,,0,11,11,5,,,,,2018_Aug_19_1302,59.6399396534,Artificial_language_learning,001,,
gulika,med,,Stims/p6.bmp,,,,,0,12,12,6,,,,,2018_Aug_19_1302,59.6399396534,Artificial_language_learning,001,,
kilonu,high,,Stims/p1.bmp,,,,,0,13,13,1,,,,,2018_Aug_19_1302,59.6399396534,Artificial_language_learning,001,,
womeku,low,,Stims/p8.bmp,,,,,0,14,14,8,,,,,2018_Aug_19_1302,59.6399396534,Artificial_language_learning,001,,
None,unseen,,Stims/pp5.bmp,,,,,0,15,15,14,,,,,2018_Aug_19_1302,59.6399396534,Artificial_language_learning,001,,
,,,,,,,,,,,,,,escape,2.26985692978,2018_Aug_19_1302,59.6399396534,Artificial_language_learning,001,,
